# Frequency (Hz), SPL (dB), Phase (degrees)
20.299999, 95.014748, -155.6487
20.600000, 95.035324, -156.0542
20.900000, 95.044647, -156.4240
21.200001, 95.050194, -156.7895
21.400000, 95.054077, -157.0307
21.799999, 95.065788, -157.5079
22.000000, 95.074394, -157.7436
22.400000, 95.096848, -158.2070
22.700001, 95.116951, -158.5441
23.000000, 95.138359, -158.8706
23.299999, 95.159752, -159.1882
23.600000, 95.179802, -159.5016
24.000000, 95.202057, -159.9235
24.299999, 95.213791, -160.2443
24.700001, 95.222244, -160.6648
25.000000, 95.225319, -160.9577
25.400000, 95.231430, -161.3004
25.799999, 95.248634, -161.6001
26.200001, 95.280891, -161.9067
26.500000, 95.311539, -162.1748
26.900000, 95.349678, -162.5936
27.200001, 95.368546, -162.9302
27.600000, 95.375618, -163.3360
28.000000, 95.367577, -163.6237
28.500000, 95.359322, -163.8077
29.000000, 95.376045, -163.9665
29.500000, 95.413612, -164.3083
30.000000, 95.445305, -164.8723
30.400000, 95.454308, -165.3782
30.700001, 95.452667, -165.7172
31.100000, 95.447205, -166.0653
31.500000, 95.447525, -166.3054
32.000000, 95.460693, -166.5496
32.500000, 95.478912, -166.8323
33.000000, 95.489456, -167.1677
33.500000, 95.491196, -167.5067
34.000000, 95.493156, -167.8201
34.500000, 95.501801, -168.1250
35.000000, 95.514854, -168.4440
35.500000, 95.526382, -168.7687
36.000000, 95.533974, -169.0751
36.500000, 95.539543, -169.3572
37.000000, 95.545341, -169.6316
37.500000, 95.551361, -169.9132
38.200001, 95.558426, -170.3117
38.700001, 95.562752, -170.5849
39.500000, 95.570076, -171.0038
40.000000, 95.574135, -171.2648
40.599998, 95.577324, -171.5744
41.200001, 95.580032, -171.8695
41.799999, 95.584358, -172.1550
42.500000, 95.590446, -172.4978
43.099998, 95.593636, -172.7981
43.700001, 95.595276, -173.0849
44.400002, 95.598526, -173.4006
45.000000, 95.602180, -173.6707
45.500000, 95.604454, -173.8997
46.200001, 95.606033, -174.2213
46.799999, 95.606346, -174.4889
47.500000, 95.606339, -174.7767
48.200001, 95.606598, -175.0489
48.700001, 95.605530, -175.2509
49.400002, 95.602219, -175.5411
50.000000, 95.602631, -175.7881
50.799999, 95.606995, -176.1250
51.500000, 95.604050, -176.3825
52.200001, 95.599785, -176.5984
53.000000, 95.597595, -176.9434
53.799999, 95.590469, -177.3042
54.500000, 95.598503, -177.5005
55.200001, 95.606140, -177.7285
56.000000, 95.573318, -177.9696
57.000000, 95.571579, -178.3035
58.000000, 95.586700, -179.0842
59.000000, 95.603828, -178.5259
60.000000, 95.757965, -178.3393
60.799999, 95.687073, -179.3863
61.500000, 95.536438, -179.8286
62.200001, 95.504852, -179.9282
63.000000, 95.548660, 179.6111
64.000000, 95.534363, 179.3183
65.000000, 95.529564, 179.1827
66.000000, 95.507164, 178.7245
67.000000, 95.506485, 178.4853
68.000000, 95.505104, 178.2183
69.000000, 95.481323, 177.9702
70.000000, 95.474312, 177.6815
71.000000, 95.470467, 177.3910
72.000000, 95.456711, 177.1394
73.000000, 95.440720, 176.8672
74.000000, 95.427086, 176.5961
75.000000, 95.420174, 176.3661
76.199997, 95.407112, 176.0541
77.500000, 95.388252, 175.7609
78.800003, 95.372734, 175.4373
80.000000, 95.353676, 175.1538
81.199997, 95.339729, 174.8793
82.500000, 95.319176, 174.5894
83.800003, 95.299774, 174.3222
85.000000, 95.284431, 174.0650
86.199997, 95.270325, 173.7885
87.500000, 95.248840, 173.5162
88.500000, 95.228607, 173.2995
90.000000, 95.207886, 173.0289
91.199997, 95.189613, 172.7825
92.500000, 95.169205, 172.5121
93.800003, 95.151169, 172.2729
95.000000, 95.136513, 172.0655
96.199997, 95.109261, 171.8599
97.500000, 95.089989, 171.6090
98.800003, 95.068748, 171.4051
100.000000, 95.047485, 171.2024
101.500000, 95.022606, 170.9405
103.000000, 94.998848, 170.7301
104.400002, 94.975700, 170.4789
106.000000, 94.947929, 170.2804
107.500000, 94.922394, 170.0344
109.000000, 94.901901, 169.7971
110.599998, 94.873070, 169.5632
112.000000, 94.863853, 169.3286
113.800003, 94.826096, 169.1523
115.000000, 94.807953, 168.7803
117.199997, 94.769569, 168.5695
118.000000, 94.712723, 168.5229
120.599998, 94.704094, 166.9544
122.000000, 94.717285, 168.0915
124.099998, 94.639091, 167.5948
125.000000, 94.640213, 167.4126
126.500000, 94.596535, 167.3504
128.000000, 94.566460, 167.0563
131.500000, 94.499496, 166.6630
132.000000, 94.491516, 166.6088
134.000000, 94.451920, 166.3923
136.000000, 94.415077, 166.1642
138.000000, 94.376228, 165.9462
140.000000, 94.335251, 165.7585
143.000000, 94.276527, 165.4500
145.000000, 94.237022, 165.2625
147.500000, 94.187012, 165.0230
150.000000, 94.140793, 164.8228
152.500000, 94.089874, 164.5756
155.000000, 94.041710, 164.4018
157.500000, 93.990753, 164.1871
160.000000, 93.939690, 163.9899
162.500000, 93.889709, 163.8145
165.000000, 93.841034, 163.6555
167.500000, 93.788849, 163.5015
170.000000, 93.740448, 163.3379
172.500000, 93.686729, 163.1772
175.000000, 93.636375, 163.0464
177.500000, 93.590836, 162.9210
180.000000, 93.488121, 162.7494
182.500000, 93.491272, 162.6191
185.000000, 93.436249, 162.5294
187.500000, 93.389481, 162.4450
190.000000, 93.344193, 162.3566
192.500000, 93.288750, 162.2527
195.000000, 93.245239, 162.1500
197.500000, 93.195526, 162.1012
200.000000, 93.147293, 162.0096
203.000000, 93.092224, 161.9495
206.000000, 93.034264, 161.8983
209.000000, 92.976669, 161.8352
212.000000, 92.922127, 161.7969
214.000000, 92.888275, 161.7508
218.000000, 92.815437, 161.7164
220.000000, 92.784988, 161.6959
224.000000, 92.717361, 161.6444
227.000000, 92.670532, 161.5833
230.000000, 92.622025, 161.5513
233.000000, 92.572479, 161.4619
236.000000, 92.527893, 161.4081
240.000000, 92.312088, 160.9954
243.000000, 92.396698, 161.3754
247.000000, 92.326286, 161.3082
250.000000, 92.280731, 161.2686
254.000000, 92.200874, 161.2380
258.000000, 92.125084, 161.2275
262.000000, 92.058578, 161.2567
265.000000, 92.004890, 161.2698
269.000000, 91.929626, 161.3036
272.000000, 91.877159, 161.3162
276.000000, 91.803085, 161.3744
280.000000, 91.727646, 161.4493
285.000000, 91.634689, 161.5489
290.000000, 91.546432, 161.6910
295.000000, 91.449440, 161.9118
300.000000, 91.256721, 162.4187
304.000000, 91.286636, 162.2535
307.000000, 91.228958, 162.3928
311.000000, 91.153221, 162.6633
315.000000, 91.078407, 162.9546
320.000000, 90.995834, 163.4383
325.000000, 90.920563, 164.0934
330.000000, 90.877548, 164.8492
335.000000, 90.886360, 165.6143
340.000000, 90.943695, 166.0870
345.000000, 91.016136, 166.1217
350.000000, 91.049835, 165.7818
355.000000, 91.026489, 165.3440
360.000000, 90.988640, 164.8878
365.000000, 90.903381, 164.8247
370.000000, 90.821167, 164.7408
375.000000, 90.742950, 164.7170
382.000000, 90.631790, 164.8234
387.000000, 90.556885, 164.9385
395.000000, 90.441299, 165.1984
400.000000, 90.374611, 165.3583
406.000000, 90.294861, 165.6061
412.000000, 90.216835, 165.8744
418.000000, 90.136909, 166.1692
425.000000, 90.055374, 166.4229
431.000000, 89.987045, 166.7780
437.000000, 89.915833, 167.0466
444.000000, 89.835220, 167.4343
450.000000, 89.771362, 167.7349
455.000000, 89.722328, 167.9941
462.000000, 89.648323, 168.3756
468.000000, 89.589653, 168.7442
475.000000, 89.516441, 169.1331
482.000000, 89.456268, 169.5984
487.000000, 89.401413, 169.8388
494.000000, 89.341118, 170.2513
500.000000, 89.282944, 170.6201
508.000000, 89.215721, 171.1077
515.000000, 89.154633, 171.5474
522.000000, 89.097588, 171.9890
530.000000, 89.028755, 172.4875
538.000000, 88.955383, 173.0273
545.000000, 88.917061, 173.4823
552.000000, 88.862991, 173.9449
560.000000, 88.801254, 174.4840
570.000000, 88.737076, 175.1553
580.000000, 88.670250, 175.8720
590.000000, 88.599342, 176.5737
600.000000, 88.537720, 177.2173
608.000000, 88.495148, 177.8439
615.000000, 88.454025, 178.3351
622.000000, 88.413933, 178.8426
630.000000, 88.371536, 179.4221
640.000000, 88.313629, -179.8126
650.000000, 88.270866, -179.1065
660.000000, 88.179756, -178.2360
670.000000, 88.181320, -177.5495
680.000000, 88.136528, -176.8345
690.000000, 88.093430, -176.0597
700.000000, 88.060547, -175.2643
710.000000, 88.026306, -174.5000
720.000000, 87.986809, -173.7773
730.000000, 87.967812, -172.9411
740.000000, 87.939240, -172.1539
750.000000, 87.910408, -171.2917
762.000000, 87.893181, -170.3366
775.000000, 87.868698, -169.2573
788.000000, 87.853584, -168.2047
800.000000, 87.840668, -167.2339
812.000000, 87.831490, -166.2104
825.000000, 87.828568, -165.1380
838.000000, 87.839180, -164.1499
850.000000, 87.833054, -163.0651
862.000000, 87.847404, -162.0334
875.000000, 87.865410, -160.9670
885.000000, 87.881104, -160.1383
900.000000, 87.965729, -158.2434
912.000000, 87.948036, -157.9768
925.000000, 87.994438, -156.8607
938.000000, 88.033279, -155.8559
950.000000, 88.082718, -154.9237
962.000000, 88.138412, -154.0653
975.000000, 88.197556, -153.0505
988.000000, 88.264114, -152.1042
1000.000000, 88.333435, -151.2453
1015.000000, 88.419365, -150.2476
1030.000000, 88.508095, -149.2218
1044.000000, 88.596977, -148.3214
1060.000000, 88.705154, -147.3745
1075.000000, 88.808563, -146.5097
1090.000000, 88.919083, -145.7214
1106.000000, 89.026306, -144.9595
1120.000000, 89.130402, -144.2677
1138.000000, 89.264778, -143.4722
1150.000000, 89.348137, -142.9644
1172.000000, 89.498100, -142.1793
1180.000000, 89.556946, -141.8830
1206.000000, 89.730957, -141.0177
1220.000000, 89.819443, -140.6193
1241.000000, 89.952988, -140.0004
1250.000000, 90.007805, -139.7484
1265.000000, 90.090538, -139.4165
1280.000000, 90.177177, -138.9852
1315.000000, 90.369949, -138.1368
1320.000000, 90.398102, -138.0128
1340.000000, 90.490631, -137.5524
1360.000000, 90.587852, -137.0726
1380.000000, 90.699921, -136.5634
1400.000000, 90.772728, -136.1530
1430.000000, 90.897263, -135.4562
1450.000000, 90.984520, -134.9621
1475.000000, 91.090630, -134.3222
1500.000000, 91.160255, -133.6166
1525.000000, 91.298775, -133.0620
1550.000000, 91.403679, -132.3994
1575.000000, 91.509995, -131.7137
1600.000000, 91.618027, -131.0347
1625.000000, 91.736649, -130.3633
1650.000000, 91.846436, -129.7070
1675.000000, 91.963242, -129.0048
1700.000000, 92.079712, -128.3210
1725.000000, 92.202919, -127.6652
1750.000000, 92.325386, -126.9190
1775.000000, 92.460121, -126.2597
1800.000000, 92.623856, -125.5514
1825.000000, 92.736526, -124.8666
1850.000000, 92.879951, -124.2329
1875.000000, 93.034630, -123.6031
1900.000000, 93.187393, -122.9580
1925.000000, 93.349487, -122.3553
1950.000000, 93.510895, -121.7614
1975.000000, 93.678444, -121.2193
2000.000000, 93.853561, -120.6699
2030.000000, 94.068405, -120.0512
2060.000000, 94.291405, -119.4979
2090.000000, 94.518982, -118.9517
2120.000000, 94.753387, -118.4650
2140.000000, 94.912552, -118.1632
2180.000000, 95.243553, -117.6633
2200.000000, 95.409752, -117.4309
2240.000000, 95.757622, -117.0904
2270.000000, 96.022247, -116.9260
2300.000000, 96.292007, -116.8238
2330.000000, 96.569977, -116.7859
2360.000000, 96.855392, -116.8645
2400.000000, 97.234306, -117.0598
2430.000000, 97.534943, -117.3838
2470.000000, 97.928215, -117.9351
2500.000000, 98.227478, -118.4855
2540.000000, 98.625824, -119.4113
2580.000000, 99.028534, -120.5334
2620.000000, 99.423401, -121.9138
2650.000000, 99.720398, -123.1192
2690.000000, 100.113968, -124.9677
2720.000000, 100.403320, -126.5708
2760.000000, 100.776039, -129.0361
2800.000000, 101.123260, -131.9400
2850.000000, 101.493553, -136.2354
2900.000000, 101.730141, -141.2509
2950.000000, 101.779434, -146.6087
3000.000000, 101.626442, -151.7243
3040.000000, 101.384972, -155.2775
3070.000000, 101.164452, -157.5282
3110.000000, 100.841110, -160.0000
3150.000000, 100.513168, -161.9426
3200.000000, 100.110336, -163.7903
3250.000000, 99.737648, -165.1465
3300.000000, 99.393707, -166.1611
3350.000000, 99.069038, -166.9251
3400.000000, 98.770706, -167.5002
3450.000000, 98.489143, -167.9237
3500.000000, 98.224518, -168.2057
3550.000000, 97.974480, -168.3715
3600.000000, 97.732788, -168.4619
3650.000000, 97.511261, -168.4617
3700.000000, 97.290520, -168.4046
3750.000000, 97.079697, -168.2593
3820.000000, 96.796432, -167.8901
3870.000000, 96.604652, -167.5333
3950.000000, 96.317329, -166.7488
4000.000000, 96.146027, -166.1471
4060.000000, 95.966965, -165.3453
4120.000000, 95.809074, -164.4510
4180.000000, 95.680054, -163.5002
4250.000000, 95.559418, -162.3881
4310.000000, 95.483047, -161.4890
4370.000000, 95.417603, -160.5996
4440.000000, 95.366806, -159.6755
4500.000000, 95.337448, -158.9273
4550.000000, 95.304367, -158.3456
4620.000000, 95.274986, -157.6505
4680.000000, 95.260529, -157.0569
4750.000000, 95.235245, -156.4328
4820.000000, 95.212906, -155.8211
4870.000000, 95.203003, -155.4297
4940.000000, 95.183342, -154.8609
5000.000000, 95.168381, -154.3689
5080.000000, 95.150696, -153.6773
5150.000000, 95.137672, -153.0197
5220.000000, 95.142616, -152.3313
5300.000000, 95.179977, -151.5528
5380.000000, 95.240479, -150.8340
5450.000000, 95.311516, -150.3155
5520.000000, 95.399719, -149.9225
5600.000000, 95.500702, -149.6750
5700.000000, 95.640289, -149.6179
5800.000000, 95.783600, -149.8598
5900.000000, 95.905869, -150.3425
6000.000000, 96.011192, -151.0282
6080.000000, 96.071968, -151.8012
6150.000000, 96.106750, -152.4981
6220.000000, 96.129440, -153.2488
6300.000000, 96.142433, -154.1289
6400.000000, 96.129028, -155.2072
6500.000000, 96.100174, -156.2715
6600.000000, 96.070541, -157.3456
6700.000000, 96.019791, -158.4278
6800.000000, 95.968346, -159.5803
6900.000000, 95.903069, -160.7560
7000.000000, 95.816650, -161.8999
7100.000000, 95.724251, -163.0314
7200.000000, 95.638283, -164.1212
7300.000000, 95.553299, -165.2510
7400.000000, 95.472191, -166.4656
7500.000000, 95.384720, -167.7400
7620.000000, 95.283005, -169.3075
7750.000000, 95.189980, -171.1403
7880.000000, 95.094513, -173.2413
8000.000000, 94.993202, -175.4997
8120.000000, 94.882294, -177.9722
8250.000000, 94.725800, 179.0366
8380.000000, 94.526367, 175.7774
8500.000000, 94.300774, 172.4756
8620.000000, 94.002190, 168.9482
8750.000000, 93.603165, 165.0470
8850.000000, 93.217316, 162.0312
9000.000000, 92.560097, 157.9595
9120.000000, 91.966263, 155.1658
9250.000000, 91.289185, 152.4228
9380.000000, 90.572899, 150.1112
9500.000000, 89.886482, 148.3964
9620.000000, 89.276329, 147.3088
9750.000000, 88.499680, 146.1484
9880.000000, 87.786461, 145.5517
10000.000000, 87.150475, 145.2507
10150.000000, 86.376480, 145.2097
10300.000000, 85.659836, 145.7192
10440.000000, 85.051483, 146.4069
10600.000000, 84.427574, 147.5233
10750.000000, 83.862976, 148.6380
10900.000000, 83.372772, 149.7490
11060.000000, 82.883293, 151.1429
11200.000000, 82.514511, 152.6911
11380.000000, 82.083595, 154.0665
11500.000000, 81.864441, 155.4104
11720.000000, 81.484352, 157.4443
11800.000000, 81.349403, 158.1906
12060.000000, 81.059753, 160.3492
12200.000000, 81.011650, 161.3468
12410.000000, 80.886063, 162.8157
12500.000000, 80.884262, 163.4063
12650.000000, 80.914795, 163.9956
12800.000000, 80.965202, 164.6180
13150.000000, 81.243523, 165.1064
13200.000000, 81.317825, 164.9605
13400.000000, 81.579079, 164.4059
13600.000000, 82.013313, 162.9994
13800.000000, 82.457596, 160.6456
14000.000000, 82.981155, 157.6126
14300.000000, 83.856842, 150.6123
14500.000000, 84.572456, 144.1741
14750.000000, 85.437630, 132.9697
15000.000000, 86.159149, 118.0031
15250.000000, 86.499588, 99.6902
15500.000000, 86.233589, 79.6829
15750.000000, 85.448135, 59.9678
16000.000000, 84.403030, 41.5256
16250.000000, 83.294724, 24.2715
16500.000000, 82.276993, 7.5219
16750.000000, 81.472809, -9.4449
17000.000000, 80.859879, -27.6251
17250.000000, 80.483849, -47.2498
17500.000000, 80.289017, -69.6533
17750.000000, 80.183945, -96.1703
18000.000000, 80.005005, -126.5841
18250.000000, 79.337021, -161.7062
18500.000000, 77.874969, 160.2004
18750.000000, 75.636627, 121.7123
19000.000000, 72.777718, 83.8512
19250.000000, 69.114044, 46.5235
19500.000000, 65.845581, 7.4433
19750.000000, 63.243332, -39.8729
